name,type,prog,cip,reporting_period,all_served,all_exited,wioa_served,wioa_exited,wioa_ita_served,wioa_ita_exited,all_completed,wioa_completed,all_employed_2q,all_employed_4q,all_median_earnings,all_obtained_credential,wioa_obtained_credential,nonwioa_employed_2q,nonwioa_employed_4q,nonwioa_median_earnings,nonwioa_credential_rate_num,nonwioa_credential_rate_den,cost_per_wioa_participant
Fox Institute,0,5,3631,2014,25,24,17,9,12,7,20,4,20,20,61282,16,3,13,9,61893,9,14,14821
Fox Institute,0,5,3631,2015,136,95,100,88,95,68,48,87,106,112,11047,26,82,6,6,91155,4,6,12673
Fox Institute,0,5,3631,2016,448,392,435,321,320,226,225,214,281,325,92360,202,187,60,38,20891,53,56,1279
Fox Institute,0,5,3220,2014,194,140,164,86,82,45,93,80,173,178,48993,68,75,43,50,33200,19,34,13039
Fox Institute,0,5,3220,2015,82,75,81,66,45,23,51,35,80,78,99447,40,33,4,7,63963,7,8,16974
Fox Institute,0,3,9453,2015,290,233,182,98,181,79,227,76,202,164,70305,157,55,74,72,97112,111,130,11209
Fox Institute,0,3,9453,2016,86,64,48,39,43,22,49,28,63,47,78766,31,26,13,17,32838,12,16,19419
Fox Institute,0,3,8770,2014,146,99,124,70,67,60,87,36,75,102,61117,70,35,27,19,30568,11,15,1513
Fox Institute,0,3,8770,2015,46,36,35,31,30,19,27,30,45,32,50042,13,25,4,2,37236,1,2,14587
Fox Institute,0,3,8770,2016,4,3,3,1,2,0,2,0,2,3,95072,1,0,1,1,90361,0,1,18633
Fox Institute,0,9,1635,2014,5,4,3,2,2,1,3,1,3,3,88191,2,0,1,1,27668,0,1,19149
Fox Institute,0,9,1635,2015,44,28,22,20,18,10,27,14,36,40,78726,24,13,7,6,98196,4,5,5293
Fox Institute,0,0,2367,2014,61,34,60,21,48,15,28,20,34,32,59796,16,10,12,8,67727,9,12,1484
Fox Institute,0,0,2367,2016,132,131,72,48,44,43,81,37,127,85,35740,45,23,67,43,93929,53,57,3108
Buck Institute,6,3,3692,2014,349,281,304,187,215,101,226,126,330,297,84732,139,72,77,53,27131,55,56,18019
Buck Institute,6,3,3692,2016,49,37,37,24,29,13,24,17,42,42,91353,21,10,7,12,84116,4,7,7344
Buck Institute,6,4,2336,2014,386,248,248,210,134,117,158,177,310,344,40731,148,116,24,35,37759,25,34,19981
Buck Institute,6,4,2336,2015,73,38,48,33,33,32,21,26,70,37,35332,10,17,3,3,95134,3,4,9792
Buck Institute,6,8,2061,2014,532,331,524,319,300,198,215,314,387,315,85998,148,277,10,6,88774,7,9,5315
Buck Institute,6,8,2061,2016,23,15,18,9,13,8,14,5,11,15,80821,10,3,4,4,11787,2,3,11385
Buck Institute,6,7,7147,2014,69,49,45,40,38,35,31,21,40,56,71029,28,17,5,6,28333,4,8,6914
Buck Institute,6,7,7147,2016,88,50,49,45,34,19,26,30,87,59,11221,13,18,4,3,57647,3,4,2798
Buck Institute,6,4,3214,2014,52,41,51,33,47,27,23,21,51,37,49155,21,18,4,4,87301,5,7,2810
Buck Institute,6,4,3214,2015,81,53,43,33,33,25,51,25,41,45,39958,44,20,10,12,81428,14,18,8951
Buck Institute,6,4,3214,2016,15,10,13,6,12,3,5,3,10,12,99368,4,2,2,2,26424,1,2,6556
Buck Institute,6,7,6731,2014,47,45,36,26,35,25,28,22,27,25,49394,22,21,14,11,73955,10,12,13917
Buck Institute,6,7,6731,2015,44,43,28,23,17,16,34,15,22,34,73724,17,8,10,13,25758,15,19,10828
Buck Institute,6,7,6731,2016,164,96,150,82,80,45,86,44,143,93,80573,84,41,8,13,88603,9,12,15222
Buck Institute,6,3,1441,2014,214,144,200,91,179,87,108,80,203,191,40740,77,60,27,36,68652,30,40,2563
Buck Institute,6,3,1441,2016,439,394,394,208,283,131,310,114,421,246,17729,166,103,152,174,20410,104,142,3564
Buck Institute,6,9,8633,2015,33,18,22,11,12,10,13,8,30,18,38197,9,7,6,3,85631,2,3,17093
Buck Institute,6,9,8633,2016,11,7,7,4,4,3,4,3,6,5,12755,3,1,2,2,68163,1,2,13572
Buck Institute,6,8,2349,2014,43,39,32,31,31,27,24,24,33,34,58475,14,19,6,7,59955,2,4,4383
Buck Institute,6,8,2349,2015,194,129,126,95,81,48,107,65,98,167,18406,70,44,31,22,90721,13,21,17640
Buck Institute,6,8,2349,2016,269,258,190,182,109,67,201,156,171,246,96261,116,83,57,49,80748,35,55,16114
Buck Institute,6,8,8143,2015,15,14,14,12,7,6,8,8,12,11,76311,6,5,1,1,45105,0,1,839
Buck Institute,6,8,8143,2016,181,92,151,63,81,56,75,34,168,180,54361,50,25,20,18,48432,9,16,11374
Buck Institute,6,8,1380,2014,139,74,81,60,55,45,60,35,88,135,26615,30,26,13,8,30609,12,13,8605
Buck Institute,6,8,1380,2016,21,16,18,15,9,5,10,13,16,14,96426,7,8,0,0,91648,0,0,14246
Buck Institute,6,7,5906,2014,28,18,27,9,16,8,9,8,18,15,55285,6,5,5,6,46597,5,8,6439
Buck Institute,6,7,5906,2015,10,9,9,8,7,5,5,4,9,9,35988,4,3,0,0,86437,0,0,10749
Huang School,7,9,5922,2015,119,88,100,72,97,66,79,61,104,87,63157,65,47,11,9,78159,8,14,13437
Huang School,7,9,5922,2016,235,148,118,107,87,50,129,79,201,150,21057,72,44,29,40,21044,15,25,13243
Huang School,7,2,3318,2014,73,61,59,36,52,29,58,20,61,72,21579,43,11,16,15,77492,10,14,4860
Huang School,7,2,3318,2015,18,11,17,6,11,3,7,4,14,16,82639,5,2,4,3,90418,1,2,1703
Huang School,7,4,9468,2014,43,40,29,28,27,23,31,19,40,36,11210,21,13,6,6,42269,7,11,5406
Huang School,7,4,9468,2015,156,102,90,68,88,54,62,42,89,136,16937,45,33,33,24,28316,13,19,1440
Huang School,7,4,7321,2015,109,85,99,71,67,39,48,52,55,105,89522,25,42,10,9,71351,4,7,11684
Huang School,7,4,7321,2016,58,55,40,36,29,19,41,18,49,47,26645,23,13,16,17,47885,12,16,11870
Huang School,7,6,7323,2014,87,61,57,54,55,44,40,41,85,56,24228,25,39,4,6,92477,2,4,14701
Huang School,7,6,7323,2015,354,285,334,274,190,116,184,233,325,280,60772,94,198,10,10,25414,3,5,10035
Huang School,7,6,7323,2016,4,3,3,2,2,1,2,1,2,3,90390,1,0,0,0,51673,0,0,4598
Huang School,7,4,5577,2014,31,26,20,19,11,8,19,18,24,26,14511,14,16,6,4,83010,2,4,12536
Huang School,7,4,5577,2016,17,10,13,9,9,5,7,4,11,9,82407,5,2,0,0,30424,0,0,11095
Huang School,7,3,1757,2015,132,87,124,64,100,56,58,53,115,68,27412,43,40,21,17,85130,15,17,18049
Huang School,7,3,1757,2016,10,8,9,7,8,6,5,4,8,5,97214,4,2,0,0,57374,0,0,17996
Huang School,7,9,3375,2015,29,16,16,12,12,11,9,6,22,17,35330,7,5,2,2,31104,1,2,15306
Huang School,7,9,3375,2016,85,68,79,52,77,48,37,38,71,71,13777,22,26,11,9,68731,8,9,15632
Huang School,7,2,7824,2014,299,236,206,196,204,189,213,111,227,154,53885,131,63,24,39,90510,29,34,3167
Huang School,7,2,7824,2016,47,37,40,25,22,12,28,12,29,37,75050,20,7,10,10,18811,8,11,19201
Huang School,7,0,7138,2014,355,181,210,118,137,81,169,92,308,303,89929,145,74,46,61,42081,35,47,15555
Huang School,7,0,7138,2016,176,141,124,119,73,54,77,97,149,131,93499,54,82,21,18,74102,15,18,4196
Huang School,7,6,2715,2014,20,18,19,14,12,6,12,12,14,19,97819,10,6,2,2,57474,1,2,12639
Smith School,7,2,1750,2014,138,87,102,74,80,51,63,68,81,128,83026,61,49,8,9,47933,6,7,6156
Smith School,7,2,1750,2016,42,30,37,16,20,14,15,10,30,26,93763,10,5,12,7,59590,3,7,465
Smith School,7,9,5155,2015,141,139,135,128,107,73,132,80,81,114,10540,116,76,10,5,81953,4,7,11216
Smith School,7,9,5155,2016,61,41,40,20,37,14,33,17,45,37,80065,32,9,18,12,32917,11,12,9002
Smith School,7,5,1997,2014,187,116,139,90,128,46,94,65,145,175,69531,58,46,21,16,57770,7,14,10074
Smith School,7,5,1997,2016,41,23,23,16,16,13,21,13,22,40,83823,14,12,6,6,16116,2,3,10543
Smith School,7,6,6654,2014,560,415,455,324,290,284,362,226,427,329,32988,283,213,61,68,86479,54,77,10366
Smith School,7,6,6654,2015,91,82,65,63,37,33,81,46,68,56,78022,71,37,16,16,96828,8,15,18792
Smith School,7,8,2515,2014,75,62,65,43,56,31,48,33,41,40,60986,27,23,16,17,98424,11,12,16772
Smith School,7,8,2515,2015,37,31,33,30,17,9,30,23,19,20,16374,27,16,0,0,32102,0,0,7641
Smith School,7,8,2515,2016,19,13,12,6,10,5,8,3,13,14,63066,7,1,4,3,48539,5,6,3239
Smith School,7,8,9674,2015,233,161,163,85,133,49,133,75,138,129,79902,109,54,41,56,50237,70,75,17881
Smith School,7,8,9674,2016,52,48,29,27,15,12,31,22,46,38,77787,29,15,13,19,49720,8,15,11264
Smith School,7,1,5641,2015,15,9,13,7,7,6,6,4,14,12,84864,3,3,1,1,42615,0,1,17616
Smith School,7,1,5641,2016,72,69,39,32,38,26,45,17,50,47,89407,36,16,27,32,49361,29,30,9477
Johnson College,4,2,8410,2014,83,53,49,31,37,26,32,29,60,42,91726,22,28,20,13,34185,13,15,11859
Johnson College,4,2,8410,2016,200,128,137,86,68,50,95,59,160,178,13926,93,35,35,23,48434,16,27,18849
Simmons School,0,2,9152,2014,27,26,15,14,13,7,13,11,18,25,71864,11,6,8,6,31128,9,11,11747
Simmons School,0,2,9152,2015,50,25,47,12,29,6,15,8,29,33,66670,12,4,11,10,78570,7,9,15259
Simmons School,0,2,9152,2016,48,40,25,24,16,14,29,15,41,31,65320,21,13,8,8,89843,6,8,4806
Simmons School,0,1,4633,2016,75,50,56,44,31,19,37,41,48,72,69009,32,29,3,5,33100,2,3,12789
Rose College,1,4,3965,2015,17,9,11,4,9,2,6,3,16,16,15211,3,2,2,4,78422,3,4,12344
Rose College,1,4,3965,2016,132,102,109,89,92,79,83,82,87,110,33863,46,63,6,8,34913,6,11,9452
Rose College,1,4,8716,2015,38,36,30,23,17,8,23,21,32,26,12368,20,14,11,12,31440,6,9,14947
Rose College,1,4,8716,2016,41,27,22,18,21,9,14,10,38,38,55756,7,7,6,5,73365,6,7,8888
Smith University,3,5,8627,2014,25,16,14,10,12,6,11,9,23,24,17034,6,5,5,4,16022,2,4,9489
Smith University,3,5,8627,2015,106,69,84,37,77,34,37,30,70,85,38529,28,16,31,27,51862,11,16,19507
Smith University,3,5,8627,2016,140,76,137,50,96,25,38,31,119,135,76103,21,28,16,13,30385,17,18,11773
Smith University,3,7,2315,2015,47,38,23,14,19,12,19,12,36,27,20659,11,10,17,17,77588,9,17,5062
Smith University,3,7,2315,2016,127,103,114,74,108,56,86,37,78,64,89318,47,31,21,23,67131,13,17,18553
Smith University,3,6,2340,2015,229,120,228,102,178,81,63,59,141,201,27934,36,38,9,11,98329,7,10,12016
Smith University,3,6,2340,2016,208,203,171,108,162,103,109,102,121,120,40103,74,52,59,85,60630,48,90,17000
Smith University,3,4,4116,2014,37,36,35,31,22,12,28,16,32,34,33089,26,8,4,4,83313,1,2,13065
Smith University,3,4,4116,2015,15,14,9,5,6,3,13,2,8,8,23092,8,1,4,8,72385,3,6,7385
Smith University,3,4,4116,2016,60,40,45,35,37,23,36,22,39,38,21403,20,17,4,3,17197,2,4,12162
Smith University,3,9,6268,2014,99,88,58,43,34,17,57,40,65,88,87254,49,26,41,37,76879,26,41,12305
Smith University,3,6,4362,2015,2,1,1,0,0,0,0,0,1,1,47121,0,0,0,0,86828,0,0,12112
Smith University,3,6,4362,2016,63,39,50,27,25,17,37,24,52,40,23233,23,12,9,9,70806,7,10,5979
Smith University,3,4,3072,2015,350,242,308,146,206,136,138,112,230,268,71124,118,84,81,66,56774,54,80,6541
Smith University,3,4,3072,2016,184,137,107,91,61,50,117,56,172,101,40899,109,42,33,40,13084,17,27,12803
Smith University,3,4,8024,2014,242,183,140,128,103,82,112,88,184,127,14508,64,81,41,40,97788,23,34,14587
Smith University,3,4,8024,2015,80,46,73,30,48,23,37,22,60,70,38942,27,14,9,14,49398,13,14,3830
Smith University,3,4,8024,2016,250,158,151,79,134,78,132,63,181,209,79158,110,57,39,73,94572,57,65,2773
Smith University,3,6,5131,2015,172,121,138,103,80,76,115,57,126,90,10417,93,51,15,12,31738,8,14,16707
Smith University,3,6,5131,2016,81,69,57,33,34,22,43,28,49,70,69919,26,15,18,30,33711,21,23,1545
Smith University,3,3,4555,2014,148,89,114,57,59,28,46,41,115,97,61023,41,26,28,21,55927,20,26,4139
Smith University,3,3,4555,2016,155,112,127,104,78,49,100,80,79,153,73361,81,79,7,4,46772,4,5,18248
Smith University,3,2,6119,2015,167,111,87,83,80,49,103,78,89,142,64045,73,49,26,23,13373,8,14,1849
Smith University,3,2,6119,2016,159,85,84,44,67,24,68,24,81,128,80035,44,15,26,24,60123,23,34,15647
Smith University,3,0,5852,2016,5,3,2,1,1,0,1,0,4,4,17279,0,0,1,1,54082,0,1,3063
Smith University,3,0,6697,2014,112,69,104,63,82,45,56,49,75,66,70780,55,39,4,4,96971,3,4,1397
Goodwin University,5,8,6614,2015,71,40,65,28,39,23,26,20,67,48,91096,15,10,8,9,97941,5,6,7837
Goodwin University,5,8,6614,2016,85,72,69,67,54,37,55,54,62,58,39244,30,31,3,2,23787,1,3,9119
Goodwin University,5,0,3869,2014,25,13,18,6,10,5,8,4,13,21,42099,4,3,5,4,63996,2,4,9873
Goodwin University,5,0,3869,2015,234,227,193,114,152,106,199,74,167,160,18330,164,66,82,108,41451,37,65,1785
Goodwin University,5,0,3869,2016,18,14,15,12,10,7,13,6,11,9,30436,9,4,1,1,48054,0,1,16943
Goodwin University,5,4,5864,2016,46,41,41,30,30,17,33,29,24,25,93228,20,22,6,8,49849,4,7,17817
Goodwin University,5,3,9032,2015,501,421,320,262,208,175,236,199,434,411,35840,187,169,124,123,54176,95,139,1511
Goodwin University,5,3,9032,2016,100,67,65,33,58,32,43,26,86,69,24268,24,15,32,20,72502,17,21,16836
Goodwin University,5,1,6363,2014,161,136,94,62,64,59,97,37,100,123,50187,87,18,48,72,75953,34,42,253
Goodwin University,5,1,6363,2015,62,59,44,40,38,21,30,22,57,42,30550,17,13,10,14,87111,15,17,13536
Goodwin University,5,5,5848,2014,110,94,85,48,58,32,64,41,108,90,64253,54,35,39,40,54126,26,45,3234
Goodwin University,5,5,5848,2015,220,146,183,121,146,112,143,75,201,137,66220,84,46,21,13,55288,6,13,11211
Goodwin University,5,5,5848,2016,136,80,72,63,62,34,46,54,129,74,46629,37,32,15,9,94695,6,9,10551
Goodwin University,5,6,5718,2015,67,58,36,18,27,14,38,15,45,60,24278,37,10,21,29,30069,24,32,17410
Goodwin University,5,6,5718,2016,33,30,29,17,25,13,23,15,28,16,73556,12,13,10,11,46716,8,12,19178
Goodwin University,5,3,4442,2015,127,100,112,92,101,81,72,48,75,65,51486,57,38,6,6,93320,3,5,7652
Goodwin University,5,3,4442,2016,279,225,225,143,194,118,193,74,242,202,65426,162,37,79,71,66786,61,64,12240
Goodwin University,5,4,9540,2015,117,62,75,35,69,26,55,32,86,102,70737,52,25,23,20,54074,8,14,10379
Goodwin University,5,4,9540,2016,10,8,9,5,6,3,6,4,5,7,50832,4,2,1,2,15875,1,2,15666
Goodwin University,5,6,5629,2014,18,14,11,8,9,7,7,5,11,16,23327,3,4,5,4,33655,3,5,8274
Goodwin University,5,6,5629,2015,95,65,80,39,74,28,60,24,87,89,21989,43,19,21,21,97076,15,18,9623
Goodwin University,5,6,5629,2016,78,71,75,52,51,46,37,47,51,62,68576,27,45,13,15,50832,14,17,13431
Goodwin University,5,3,9476,2014,72,54,55,28,40,19,31,17,40,36,53331,28,11,24,22,86895,20,23,3708
Goodwin University,5,3,9476,2016,1,0,0,0,0,0,0,0,0,0,48622,0,0,0,0,60039,0,0,6625
Goodwin University,5,1,5952,2014,35,31,21,11,11,6,23,8,23,23,78700,22,5,14,18,44060,8,12,5213
Goodwin University,5,1,5952,2015,21,13,19,11,11,7,9,10,16,11,39414,8,7,1,1,95141,0,1,3846
Goodwin University,5,2,3137,2014,104,75,97,60,74,41,46,36,66,69,91818,36,33,13,10,70517,7,10,6139
Goodwin University,5,2,3137,2015,236,149,197,93,181,56,140,56,139,209,32824,122,53,30,55,29649,48,51,2965
Goodwin University,5,2,3137,2016,205,148,142,73,82,71,88,53,167,137,92347,77,42,65,58,10329,37,69,19702
Decker School,5,0,5725,2014,50,49,38,36,29,24,26,33,41,32,72831,21,25,8,12,46838,8,11,19344
Schneider School,8,1,3293,2014,219,141,150,71,77,43,120,55,205,148,61031,96,42,67,45,29992,37,44,3614
Schneider School,8,1,3293,2016,70,38,55,25,36,22,34,14,62,53,46869,19,12,6,11,59852,5,10,4625
Schneider School,8,2,1144,2014,46,30,36,21,35,19,19,17,36,36,33546,10,14,4,7,43551,5,7,6925
Schneider School,8,2,1144,2016,23,19,22,10,18,6,16,6,22,19,50344,14,3,6,4,38310,2,4,4920
Schneider School,8,5,2160,2016,6,3,3,2,2,1,2,1,5,4,24866,1,0,0,0,64713,0,0,10532
Schneider School,8,5,5436,2014,40,36,31,29,24,13,19,27,33,38,69446,14,17,3,4,42202,4,6,327
Schneider School,8,5,5436,2015,36,26,30,21,28,11,16,10,35,30,70391,13,7,2,3,99531,2,4,5789
Schneider School,8,9,5358,2015,163,88,84,57,63,43,75,40,106,93,26244,48,28,29,30,68941,25,29,12561
Schneider School,8,9,5358,2016,4,2,3,1,1,0,1,0,2,2,51100,0,0,0,0,27264,0,0,17053
Schneider School,8,3,4674,2014,79,75,62,44,53,22,65,43,62,61,32256,50,25,18,21,44338,16,27,9560
Schneider School,8,3,4674,2015,74,57,45,23,30,16,37,12,45,48,15188,34,6,33,24,40419,31,33,10817
Schneider School,8,3,4674,2016,164,133,157,129,119,89,69,121,140,107,78370,63,101,2,2,90103,1,2,14995
Schneider School,8,4,6894,2015,128,85,121,73,119,42,80,67,102,100,48196,58,58,7,11,18967,3,6,15785
Schneider School,8,4,6894,2016,3,2,2,1,1,0,1,0,1,2,86665,0,0,0,0,90989,0,0,8116
Schneider School,8,0,5774,2014,171,149,145,118,112,67,106,115,131,141,80952,99,107,27,22,63766,13,21,18215
Schneider School,8,0,5774,2015,38,28,19,12,12,11,25,7,19,25,82523,16,3,13,9,89709,7,10,15685
Schneider School,8,0,5774,2016,25,18,19,14,12,7,16,9,16,17,32488,10,5,2,2,68354,2,3,14748
Schneider School,8,6,2662,2015,209,126,169,112,100,91,116,73,181,147,10490,74,53,10,8,40599,6,10,6590
Schneider School,8,6,2662,2016,21,14,15,13,8,5,13,7,16,12,17859,12,5,0,0,76671,0,0,18019
Schneider School,8,1,1368,2015,27,26,15,7,14,4,16,6,16,22,89665,14,3,11,10,87297,14,17,8318
Schneider School,8,1,1368,2016,60,32,41,23,22,13,16,19,58,32,48905,8,11,8,6,92991,4,8,9483
Schneider School,8,9,2200,2014,36,35,22,19,17,13,32,12,23,25,19310,26,7,11,11,40022,9,12,6556
Schneider School,8,9,2200,2015,195,143,127,115,104,56,78,66,114,110,95378,49,47,25,20,54423,14,24,14574
Schneider School,8,9,2200,2016,36,22,34,21,19,10,20,13,20,30,83055,17,8,0,0,32094,0,0,5830
Schneider School,8,3,9530,2015,20,17,17,16,9,6,16,8,14,13,47820,14,7,0,0,23099,0,0,6952
Schneider School,8,3,9530,2016,46,27,45,20,44,13,16,11,42,27,49046,13,5,3,4,26168,3,6,2183
Schneider School,8,0,3355,2015,58,31,42,16,36,11,16,11,51,39,87651,11,9,9,13,29642,5,9,1050
Schneider School,8,0,3355,2016,68,55,51,43,49,24,30,38,67,54,33604,15,31,7,8,86915,9,11,12707
Schneider School,8,5,4596,2014,39,19,21,18,14,7,11,10,29,38,49234,9,7,0,0,59015,0,0,19547
Schneider School,8,5,4596,2015,165,149,94,87,90,72,92,62,123,143,14451,68,31,36,58,18922,55,61,8794
Schneider School,8,0,1116,2015,99,71,75,68,70,40,41,52,83,59,85715,32,50,2,2,33803,1,2,3057
Schneider School,8,0,1116,2016,136,104,131,70,118,67,79,43,116,120,23453,68,37,20,21,81255,20,21,19147
Schneider School,8,2,5058,2014,10,9,6,4,5,2,6,3,9,5,24511,3,1,3,3,48307,2,3,16747
Schneider School,8,2,5058,2015,13,12,11,9,9,6,6,5,8,7,32186,3,2,1,2,48415,1,2,16469
Schneider School,8,6,8152,2014,83,42,59,38,57,37,34,20,72,70,33463,25,12,3,2,80237,2,3,3882
Schneider School,8,6,8152,2015,60,32,49,27,29,16,26,23,37,38,35472,24,17,2,2,84787,1,2,17120
Schneider School,8,6,8146,2015,50,47,42,38,28,17,27,37,39,28,75681,19,22,8,5,68308,5,7,18063
Schneider School,8,6,8146,2016,3,2,2,1,1,0,1,0,2,2,29211,0,0,0,0,69153,0,0,2221
Schneider School,8,1,8146,2015,520,515,504,443,371,305,353,401,323,455,11377,216,337,43,71,62199,36,70,954
Schneider School,8,1,8146,2016,89,48,57,42,49,29,30,33,59,67,13764,29,31,4,3,16007,3,5,15588
Schneider School,8,7,3929,2016,22,21,15,14,11,9,14,10,19,16,31884,11,7,4,4,66820,3,5,18022
Schneider School,8,5,6153,2015,83,56,45,31,38,19,46,29,78,71,43295,40,17,22,19,30383,16,20,15934
Schneider School,8,5,6153,2016,45,38,28,20,20,18,35,16,35,36,68251,22,9,10,11,25866,6,11,5946
Schneider School,8,3,7132,2014,189,128,103,97,79,78,86,69,102,97,23625,43,68,23,28,64818,13,21,4355
Schneider School,8,3,7132,2015,135,105,97,60,81,40,104,34,73,69,30649,88,20,42,25,15850,26,36,8532
Stewart Institute,4,3,4460,2015,3,2,2,1,1,0,1,0,1,2,37483,0,0,0,0,40572,0,0,16559
Stewart Institute,4,3,4460,2016,92,53,70,44,36,31,36,39,54,88,24134,34,21,5,5,79427,3,5,11533
Stewart Institute,4,3,5038,2014,73,49,45,41,32,30,31,39,44,65,39220,21,27,5,4,35413,4,7,7017
Stewart Institute,4,3,5038,2016,8,5,7,4,4,2,3,2,5,7,28553,2,1,0,0,62429,0,0,709
Stewart Institute,4,9,1334,2014,336,331,319,286,212,144,242,144,323,278,40996,173,85,22,27,48054,26,43,1466
Stewart Institute,4,9,1334,2015,15,14,11,9,7,4,9,5,14,14,83293,8,2,3,4,59610,2,3,5088
Stewart Institute,4,6,2059,2014,99,68,63,58,53,26,36,29,88,95,56677,27,25,9,5,39907,5,7,8873
Stewart Institute,4,6,2059,2015,6,4,5,3,4,2,3,2,3,5,46974,1,1,0,0,69349,0,0,17561
Stewart Institute,4,6,2059,2016,456,383,418,277,337,274,280,204,378,342,16162,185,126,68,103,82013,48,89,7367
Stewart Institute,4,3,1246,2014,18,11,12,10,9,4,6,9,15,12,50724,4,8,0,0,73681,0,0,12322
Stewart Institute,4,3,1246,2016,117,81,91,51,65,34,46,40,63,107,93803,44,26,15,19,73841,17,25,12630
